Folder: XRD-Data-Processing/Datasets

Note: README.md
# XRD-Data-Processing

Project for processing and data visualization of XRD experimental data.

File: xrd_sample.txt
XRD_sample ‚óè Full Chart; d-I
Wavelength = 1.54059
17.65946	117.00
16.98070	96.00
16.35222	95.00
15.76865	105.00
15.22535	108.00
14.71828	107.00
14.24393	105.00
13.79925	125.00
13.38153	100.00
12.98840	114.00
12.61775	113.00
12.26770	105.00
11.93658	134.00
11.62290	123.00
11.32532	99.00
11.04263	109.00
10.77374	100.00
10.51767	118.00
10.27351	100.00
10.04047	98.00
9.81779	120.00
9.60481	117.00
9.40089	123.00
9.20548	115.00
9.01806	140.00
8.83814	134.00
8.66529	134.00
8.49910	128.00
8.33918	147.00
8.18520	136.00
8.03682	124.00
7.89375	127.00
7.75571	111.00
7.62244	123.00
7.49369	143.00
7.36924	144.00
7.24888	145.00
7.13240	170.00
7.01964	127.00
6.91040	159.00
6.80453	179.00
6.70188	161.00
6.60230	163.00
6.50565	169.00
6.41181	171.00
6.32066	186.00
6.23209	193.00
6.14598	217.00
6.06223	166.00
5.98076	192.00
5.90146	216.00
5.82426	197.00
5.74906	241.00
5.67580	200.00
5.60441	222.00
5.53480	215.00
5.46692	246.00
5.40069	265.00
5.33607	269.00
5.27300	292.00
5.21141	259.00
5.15126	286.00
5.09250	280.00
5.03507	295.00
4.97895	309.00
4.92408	319.00
4.87041	339.00
4.81792	355.00
4.76656	358.00
4.71631	351.00
4.66711	403.00
4.61894	424.00
4.57177	398.00
4.52557	395.00
4.48031	446.00
4.43595	420.00
4.39248	456.00
4.34987	480.00
4.30808	472.00
4.26711	510.00
4.22692	509.00
4.18749	481.00
4.14881	505.00
4.11084	522.00
4.07358	546.00
4.03700	535.00
4.00108	542.00
3.96580	520.00
3.93116	538.00
3.89712	534.00
3.86369	534.00
3.83083	535.00
3.79854	532.00
3.76680	486.00
3.73559	526.00
3.70492	545.00
3.67475	536.00
3.64508	488.00
3.61589	511.00
3.58718	525.00
3.55894	516.00
3.53114	529.00
3.50379	500.00
3.47687	510.00
3.45037	483.00
3.42428	518.00
3.39859	514.00
3.37330	512.00
3.34839	564.00
3.32385	477.00
3.29968	507.00
3.27587	521.00
3.25241	508.00
3.22930	478.00
3.20652	458.00
3.18407	480.00
3.16194	464.00
3.14012	475.00
3.11862	466.00
3.09741	465.00
3.07650	471.00
3.05589	460.00
3.03555	466.00
3.01549	418.00
2.99571	450.00
2.97619	443.00
2.95694	473.00
2.93794	449.00
2.91919	481.00
2.90069	453.00
2.88243	431.00
2.86440	404.00
2.84661	433.00
2.82905	407.00
2.81171	389.00
2.79460	396.00
2.77769	374.00
2.76100	382.00
2.74452	373.00
2.72824	395.00
2.71216	364.00
2.69628	395.00
2.68059	360.00
2.66509	353.00
2.64977	377.00
2.63464	354.00
2.61969	367.00
2.60492	329.00
2.59032	290.00
2.57589	347.00
2.56162	300.00
2.54753	313.00
2.53359	314.00
2.51981	271.00
2.50619	309.00
2.49273	291.00
2.47941	263.00
2.46625	295.00
2.45323	295.00
2.44035	278.00
2.42762	254.00
2.41503	257.00
2.40257	234.00
2.39025	250.00
2.37806	256.00
2.36600	221.00
2.35407	231.00
2.34227	246.00
2.33060	255.00
2.31904	227.00
2.30761	231.00
2.29629	236.00
2.28510	242.00
2.27402	225.00
2.26305	227.00
2.25219	206.00
2.24145	228.00
2.23081	210.00
2.22028	267.00
2.20986	244.00
2.19954	224.00
2.18932	221.00
2.17921	214.00
2.16919	218.00
2.15927	241.00
2.14945	211.00
2.13973	238.00
2.13010	247.00
2.12056	254.00
2.11111	223.00
2.10175	235.00
2.09249	238.00
2.08330	242.00
2.07421	214.00
2.06520	219.00
2.05628	248.00
2.04744	188.00
2.03868	204.00
2.03000	211.00
2.02140	219.00
2.01288	179.00
2.00444	218.00
1.99607	210.00
1.98778	221.00
1.97956	217.00
1.97142	236.00
1.96335	227.00
1.95535	206.00
1.94743	226.00
1.93957	224.00
1.93178	205.00
1.92406	201.00
1.91641	189.00
1.90882	188.00
1.90130	196.00
1.89384	213.00
1.88645	203.00
1.87912	203.00
1.87186	197.00
1.86465	179.00
1.85751	189.00
1.85042	192.00
1.84340	173.00
1.83643	199.00
1.82952	186.00
1.82267	188.00
1.81588	212.00
1.80914	203.00
1.80246	181.00
1.79583	192.00
1.78926	178.00
1.78274	171.00
1.77627	202.00
1.76985	196.00
1.76349	199.00
1.75718	208.00
1.75091	203.00
1.74470	211.00
1.73854	208.00
1.73242	207.00
1.72635	171.00
1.72033	171.00
1.71436	169.00
1.70844	179.00
1.70256	180.00
1.69672	167.00
1.69093	204.00
1.68519	182.00
1.67949	174.00
1.67383	181.00
1.66821	208.00
1.66264	183.00
1.65711	186.00
1.65162	173.00
1.64618	182.00
1.64077	201.00
1.63541	182.00
1.63008	177.00
1.62479	194.00
1.61955	219.00
1.61434	187.00
1.60917	188.00
1.60403	205.00
1.59894	184.00
1.59388	177.00
1.58886	189.00
1.58388	168.00
1.57893	177.00
1.57401	177.00
1.56914	192.00
1.56429	195.00
1.55949	204.00
1.55471	191.00
1.54997	186.00
1.54526	169.00
1.54059	174.00

File: xrd_sample.xy
XRD_sample ‚óè Full Chart
Wavelength = 1.54059
5	117.00
5.2	96.00
5.4	95.00
5.6	105.00
5.8	108.00
6	107.00
6.2	105.00
6.4	125.00
6.6	100.00
6.8	114.00
7	113.00
7.2	105.00
7.4	134.00
7.6	123.00
7.8	99.00
8	109.00
8.2	100.00
8.4	118.00
8.6	100.00
8.8	98.00
9	120.00
9.2	117.00
9.4	123.00
9.6	115.00
9.8	140.00
10	134.00
10.2	134.00
10.4	128.00
10.6	147.00
10.8	136.00
11	124.00
11.2	127.00
11.4	111.00
11.6	123.00
11.8	143.00
12	144.00
12.2	145.00
12.4	170.00
12.6	127.00
12.8	159.00
13	179.00
13.2	161.00
13.4	163.00
13.6	169.00
13.8	171.00
14	186.00
14.2	193.00
14.4	217.00
14.6	166.00
14.8	192.00
15	216.00
15.2	197.00
15.4	241.00
15.6	200.00
15.8	222.00
16	215.00
16.2	246.00
16.4	265.00
16.6	269.00
16.8	292.00
17	259.00
17.2	286.00
17.4	280.00
17.6	295.00
17.8	309.00
18	319.00
18.2	339.00
18.4	355.00
18.6	358.00
18.8	351.00
19	403.00
19.2	424.00
19.4	398.00
19.6	395.00
19.8	446.00
20	420.00
20.2	456.00
20.4	480.00
20.6	472.00
20.8	510.00
21	509.00
21.2	481.00
21.4	505.00
21.6	522.00
21.8	546.00
22	535.00
22.2	542.00
22.4	520.00
22.6	538.00
22.8	534.00
23	534.00
23.2	535.00
23.4	532.00
23.6	486.00
23.8	526.00
24	545.00
24.2	536.00
24.4	488.00
24.6	511.00
24.8	525.00
25	516.00
25.2	529.00
25.4	500.00
25.6	510.00
25.8	483.00
26	518.00
26.2	514.00
26.4	512.00
26.6	564.00
26.8	477.00
27	507.00
27.2	521.00
27.4	508.00
27.6	478.00
27.8	458.00
28	480.00
28.2	464.00
28.4	475.00
28.6	466.00
28.8	465.00
29	471.00
29.2	460.00
29.4	466.00
29.6	418.00
29.8	450.00
30	443.00
30.2	473.00
30.4	449.00
30.6	481.00
30.8	453.00
31	431.00
31.2	404.00
31.4	433.00
31.6	407.00
31.8	389.00
32	396.00
32.2	374.00
32.4	382.00
32.6	373.00
32.8	395.00
33	364.00
33.2	395.00
33.4	360.00
33.6	353.00
33.8	377.00
34	354.00
34.2	367.00
34.4	329.00
34.6	290.00
34.8	347.00
35	300.00
35.2	313.00
35.4	314.00
35.6	271.00
35.8	309.00
36	291.00
36.2	263.00
36.4	295.00
36.6	295.00
36.8	278.00
37	254.00
37.2	257.00
37.4	234.00
37.6	250.00
37.8	256.00
38	221.00
38.2	231.00
38.4	246.00
38.6	255.00
38.8	227.00
39	231.00
39.2	236.00
39.4	242.00
39.6	225.00
39.8	227.00
40	206.00
40.2	228.00
40.4	210.00
40.6	267.00
40.8	244.00
41	224.00
41.2	221.00
41.4	214.00
41.6	218.00
41.8	241.00
42	211.00
42.2	238.00
42.4	247.00
42.6	254.00
42.8	223.00
43	235.00
43.2	238.00
43.4	242.00
43.6	214.00
43.8	219.00
44	248.00
44.2	188.00
44.4	204.00
44.6	211.00
44.8	219.00
45	179.00
45.2	218.00
45.4	210.00
45.6	221.00
45.8	217.00
46	236.00
46.2	227.00
46.4	206.00
46.6	226.00
46.8	224.00
47	205.00
47.2	201.00
47.4	189.00
47.6	188.00
47.8	196.00
48	213.00
48.2	203.00
48.4	203.00
48.6	197.00
48.8	179.00
49	189.00
49.2	192.00
49.4	173.00
49.6	199.00
49.8	186.00
50	188.00
50.2	212.00
50.4	203.00
50.6	181.00
50.8	192.00
51	178.00
51.2	171.00
51.4	202.00
51.6	196.00
51.8	199.00
52	208.00
52.2	203.00
52.4	211.00
52.6	208.00
52.8	207.00
53	171.00
53.2	171.00
53.4	169.00
53.6	179.00
53.8	180.00
54	167.00
54.2	204.00
54.4	182.00
54.6	174.00
54.8	181.00
55	208.00
55.2	183.00
55.4	186.00
55.6	173.00
55.8	182.00
56	201.00
56.2	182.00
56.4	177.00
56.6	194.00
56.8	219.00
57	187.00
57.2	188.00
57.4	205.00
57.6	184.00
57.8	177.00
58	189.00
58.2	168.00
58.4	177.00
58.6	177.00
58.8	192.00
59	195.00
59.2	204.00
59.4	191.00
59.6	186.00
59.8	169.00
60	174.00